stair.thisTrialN,stair.stepSize,stair.intensity,thisRow.t,trial.started,fixation.started,grating.started,key_resp.started,fixation.stopped,grating.stopped,trial.stopped,corrAns,tilt,key_resp.corr,stair.response,key_resp.rt,participant,session,date,expName,psychopyVersion,frameRate,expStart
0,2,10,0.0786996,0.0533155,0.0786996,0.5420486,0.5420486,0.5953532,0.841526,28.7047441,left,-10,0,0,28.0525106,1,1,2024-09-06_11h01.35.874,adaptive_staircase,2024.1.5,None,2024-09-06 11h01.42.317113 +0530
1,2,12,28.7212437,28.7048787,28.7212437,29.2073214,29.2073214,29.2247386,29.5067622,1771.636227,left,-12,0,0,1742.416829,1,1,2024-09-06_11h01.35.874,adaptive_staircase,2024.1.5,None,2024-09-06 11h01.42.317113 +0530
2,1,14,1771.65115,1771.636471,1771.65115,1772.151589,1772.151589,1772.151589,1772.467167,1773.435671,right,14,1,1,1.2716641,1,1,2024-09-06_11h01.35.874,adaptive_staircase,2024.1.5,None,2024-09-06 11h01.42.317113 +0530
3,1,13,1773.450527,1773.435791,1773.450527,1773.950732,1773.950732,1773.950732,1774.250559,1774.718619,right,13,1,1,0.7513247,1,1,2024-09-06_11h01.35.874,adaptive_staircase,2024.1.5,None,2024-09-06 11h01.42.317113 +0530
4,1,13,1774.733378,1774.718799,1774.733378,1775.23367,1775.23367,1775.23367,1775.533808,1776.286076,right,13,1,1,1.0434977,1,1,2024-09-06_11h01.35.874,adaptive_staircase,2024.1.5,None,2024-09-06 11h01.42.317113 +0530
5,1,13,1776.300715,1776.286201,1776.300715,1776.800412,1776.800412,1776.800412,1777.09973,1802.400568,left,-13,0,0,25.5942147,1,1,2024-09-06_11h01.35.874,adaptive_staircase,2024.1.5,None,2024-09-06 11h01.42.317113 +0530
6,1,14,1802.416238,1802.400669,1802.416238,1802.899342,1802.899342,1802.915311,1803.199633,1803.517882,right,14,1,1,0.6149545,1,1,2024-09-06_11h01.35.874,adaptive_staircase,2024.1.5,None,2024-09-06 11h01.42.317113 +0530
7,1,14,1803.53293,1803.518015,1803.53293,1804.032979,1804.032979,1804.032979,1804.333018,1804.368004,right,14,1,1,0.32446,1,1,2024-09-06_11h01.35.874,adaptive_staircase,2024.1.5,None,2024-09-06 11h01.42.317113 +0530
8,0.5,14,1804.383115,1804.368147,1804.383115,1804.88356,1804.88356,1804.88356,1805.182853,1805.416393,right,14,1,1,0.5281269,1,1,2024-09-06_11h01.35.874,adaptive_staircase,2024.1.5,None,2024-09-06 11h01.42.317113 +0530
9,0.5,13.5,1805.432581,1805.41651,1805.432581,1805.931344,1805.931344,1805.948481,1806.231971,1806.267698,left,-13.5,0,0,0.3329493,1,1,2024-09-06_11h01.35.874,adaptive_staircase,2024.1.5,None,2024-09-06 11h01.42.317113 +0530
10,0.5,14,1806.282716,1806.267822,1806.282716,1806.782529,1806.782529,1806.782529,1807.082542,1807.116339,right,14,1,1,0.3237127,1,1,2024-09-06_11h01.35.874,adaptive_staircase,2024.1.5,None,2024-09-06 11h01.42.317113 +0530
11,0.5,14,1807.132072,1807.116458,1807.132072,1807.616498,1807.616498,1807.631716,1807.915777,1807.951346,right,14,1,1,0.323364,1,1,2024-09-06_11h01.35.874,adaptive_staircase,2024.1.5,None,2024-09-06 11h01.42.317113 +0530
12,0.5,14,1807.966143,1807.951472,1807.966143,1808.465962,1808.465962,1808.465962,1808.76573,1808.750471,left,-14,0,0,0.2680525,1,1,2024-09-06_11h01.35.874,adaptive_staircase,2024.1.5,None,2024-09-06 11h01.42.317113 +0530
13,0.5,14.5,1808.76573,1808.750598,1808.76573,1809.266743,1809.266743,1809.266743,1809.566107,1809.551126,left,-14.5,0,0,0.2699749,1,1,2024-09-06_11h01.35.874,adaptive_staircase,2024.1.5,None,2024-09-06 11h01.42.317113 +0530
14,0.5,15,1809.566107,1809.551225,1809.566107,1810.06562,1810.06562,1810.06562,1810.365574,1811.332518,right,15,1,1,1.2530591,1,1,2024-09-06_11h01.35.874,adaptive_staircase,2024.1.5,None,2024-09-06 11h01.42.317113 +0530
15,0.5,15,1811.348869,1811.332621,1811.348869,1811.83202,1811.83202,1811.848982,1812.136808,1812.866514,left,-15,0,0,1.0201869,1,1,2024-09-06_11h01.35.874,adaptive_staircase,2024.1.5,None,2024-09-06 11h01.42.317113 +0530
16,0.5,15.5,1812.881955,1812.866634,1812.881955,1813.365721,1813.365721,1813.382396,1813.666649,1814.004337,left,-15.5,0,0,0.6358533,1,1,2024-09-06_11h01.35.874,adaptive_staircase,2024.1.5,None,2024-09-06 11h01.42.317113 +0530
17,0.5,16,1814.022055,1814.004572,1814.022055,1814.515711,1814.515711,1814.532586,1814.815403,1814.936922,left,-16,0,0,0.4021215,1,1,2024-09-06_11h01.35.874,adaptive_staircase,2024.1.5,None,2024-09-06 11h01.42.317113 +0530
18,0.5,16.5,1814.948919,1814.937065,1814.948919,1815.451125,1815.451125,1815.451125,1815.750137,1816.449296,right,16.5,1,1,0.99155,1,1,2024-09-06_11h01.35.874,adaptive_staircase,2024.1.5,None,2024-09-06 11h01.42.317113 +0530
19,0.5,16.5,1816.465139,1816.449405,1816.465139,1816.950106,1816.950106,1816.966756,1817.249384,1818.350947,right,16.5,1,1,-1815.063057,1,1,2024-09-06_11h01.35.874,adaptive_staircase,2024.1.5,None,2024-09-06 11h01.42.317113 +0530
20,0.5,16.5,1818.366594,1818.351059,1818.366594,1818.865653,1818.865653,1818.882173,1819.166684,1819.518942,left,-16.5,0,0,-1815.810677,1,1,2024-09-06_11h01.35.874,adaptive_staircase,2024.1.5,None,2024-09-06 11h01.42.317113 +0530
21,0.5,17,1819.531853,1819.519028,1819.531853,1820.031634,1820.031634,1820.031634,1820.332056,1821.987785,left,-17,0,0,-1814.504899,1,1,2024-09-06_11h01.35.874,adaptive_staircase,2024.1.5,None,2024-09-06 11h01.42.317113 +0530
22,0.5,17.5,1822.000149,1821.987977,1822.000149,1822.502016,1822.502016,1822.502016,1822.80107,1823.221729,right,17.5,1,1,-1815.741242,1,1,2024-09-06_11h01.35.874,adaptive_staircase,2024.1.5,None,2024-09-06 11h01.42.317113 +0530
23,0.5,17.5,1823.234626,1823.221911,1823.234626,1823.734568,1823.734568,1823.734568,1824.035267,1824.869209,left,-17.5,0,0,-1815.33528,1,1,2024-09-06_11h01.35.874,adaptive_staircase,2024.1.5,None,2024-09-06 11h01.42.317113 +0530
24,0.5,18,1824.882798,1824.869375,1824.882798,1825.383255,1825.383255,1825.383255,1825.684789,1826.254361,right,18,1,1,-1815.585656,1,1,2024-09-06_11h01.35.874,adaptive_staircase,2024.1.5,None,2024-09-06 11h01.42.317113 +0530
25,0.5,18,1826.267647,1826.254536,1826.267647,1826.768165,1826.768165,1826.768165,1827.085081,1828.750398,right,18,1,1,-1814.482087,1,1,2024-09-06_11h01.35.874,adaptive_staircase,2024.1.5,None,2024-09-06 11h01.42.317113 +0530
26,0.5,18,1828.76525,1828.750514,1828.76525,1829.248944,1829.248944,1829.265461,1829.548082,1830.349083,left,-18,0,0,-1815.365923,1,1,2024-09-06_11h01.35.874,adaptive_staircase,2024.1.5,None,2024-09-06 11h01.42.317113 +0530
27,0.5,18.5,1830.364578,1830.349218,1830.364578,1830.847856,1830.847856,1830.864507,1831.147724,1831.449961,right,18.5,1,1,-1815.864095,1,1,2024-09-06_11h01.35.874,adaptive_staircase,2024.1.5,None,2024-09-06 11h01.42.317113 +0530
28,0.5,18.5,1831.465063,1831.450067,1831.465063,1831.96502,1831.96502,1831.96502,1832.265888,1832.550472,right,18.5,1,1,-1815.883636,1,1,2024-09-06_11h01.35.874,adaptive_staircase,2024.1.5,None,2024-09-06 11h01.42.317113 +0530
29,0.5,18.5,1832.564813,1832.550578,1832.564813,1833.066088,1833.066088,1833.066088,1833.365881,1833.852613,right,18.5,1,1,-1815.680352,1,1,2024-09-06_11h01.35.874,adaptive_staircase,2024.1.5,None,2024-09-06 11h01.42.317113 +0530
30,0.5,18,1833.867053,1833.852818,1833.867053,1834.364754,1834.364754,1834.381791,1834.667166,1837.235102,right,18,1,1,-1813.597564,1,1,2024-09-06_11h01.35.874,adaptive_staircase,2024.1.5,None,2024-09-06 11h01.42.317113 +0530
31,0.5,18,1837.249957,1837.235278,1837.249957,1837.748726,1837.748726,1837.765929,1838.050098,1838.336238,right,18,1,1,-1815.872179,1,1,2024-09-06_11h01.35.874,adaptive_staircase,2024.1.5,None,2024-09-06 11h01.42.317113 +0530
32,0.5,18,1838.348721,1838.336443,1838.348721,1838.850216,1838.850216,1838.850216,1839.149492,1839.403807,right,18,1,1,-1815.908376,1,1,2024-09-06_11h01.35.874,adaptive_staircase,2024.1.5,None,2024-09-06 11h01.42.317113 +0530
33,0.5,17.5,1839.415208,1839.404081,1839.415208,1839.916574,1839.916574,1839.916574,1840.21646,1843.170962,right,17.5,1,1,-1813.202607,1,1,2024-09-06_11h01.35.874,adaptive_staircase,2024.1.5,None,2024-09-06 11h01.42.317113 +0530
34,0.5,17.5,1843.183432,1843.171158,1843.183432,1843.683612,1843.683612,1843.683612,1843.983887,1844.468734,right,17.5,1,1,-1815.678471,1,1,2024-09-06_11h01.35.874,adaptive_staircase,2024.1.5,None,2024-09-06 11h01.42.317113 +0530
35,0.5,17.5,1844.483173,1844.468901,1844.483173,1844.982966,1844.982966,1844.982966,1845.284436,1845.469237,left,-17.5,0,0,-1815.970714,1,1,2024-09-06_11h01.35.874,adaptive_staircase,2024.1.5,None,2024-09-06 11h01.42.317113 +0530
36,0.5,18,1845.48308,1845.469396,1845.48308,1845.983556,1845.983556,1845.983556,1846.283539,1846.386366,right,18,1,1,-1816.053211,1,1,2024-09-06_11h01.35.874,adaptive_staircase,2024.1.5,None,2024-09-06 11h01.42.317113 +0530
37,0.5,18,1846.397834,1846.386515,1846.397834,1846.90129,1846.90129,1846.90129,1847.200715,1847.269276,left,-18,0,0,-1816.097806,1,1,2024-09-06_11h01.35.874,adaptive_staircase,2024.1.5,None,2024-09-06 11h01.42.317113 +0530
38,0.5,18.5,1847.282518,1847.269511,1847.282518,1847.783634,1847.783634,1847.783634,1848.100858,1848.253552,right,18.5,1,1,-1815.991441,1,1,2024-09-06_11h01.35.874,adaptive_staircase,2024.1.5,None,2024-09-06 11h01.42.317113 +0530
39,0.5,18.5,1848.265504,1848.253714,1848.265504,1848.766813,1848.766813,1848.766813,1849.082376,1849.268349,left,-18.5,0,0,-1815.956738,1,1,2024-09-06_11h01.35.874,adaptive_staircase,2024.1.5,None,2024-09-06 11h01.42.317113 +0530
40,0.5,19,1849.282944,1849.268514,1849.282944,1849.783329,1849.783329,1849.783329,1850.083475,1850.335565,left,-19,1,1,-1815.918264,1,1,2024-09-06_11h01.35.874,adaptive_staircase,2024.1.5,None,2024-09-06 11h01.42.317113 +0530
41,0.5,19,1850.350099,1850.335712,1850.350099,1850.84948,1850.84948,1850.84948,1851.148558,1853.919359,left,-19,1,1,-1813.387968,1,1,2024-09-06_11h01.35.874,adaptive_staircase,2024.1.5,None,2024-09-06 11h01.42.317113 +0530
42,0.5,19,1853.932651,1853.919533,1853.932651,1854.433703,1854.433703,1854.433703,1854.750264,1855.136674,left,-19,0,0,-1815.755558,1,1,2024-09-06_11h01.35.874,adaptive_staircase,2024.1.5,None,2024-09-06 11h01.42.317113 +0530
43,0.5,19.5,1855.148816,1855.136941,1855.148816,1855.649583,1855.649583,1855.649583,1855.966029,1856.419629,left,-19.5,1,1,-1815.692984,1,1,2024-09-06_11h01.35.874,adaptive_staircase,2024.1.5,None,2024-09-06 11h01.42.317113 +0530
44,0.5,19.5,1856.43102,1856.419788,1856.43102,1856.934097,1856.934097,1856.934097,1857.2332,1860.768302,left,-19.5,0,0,-1812.630372,1,1,2024-09-06_11h01.35.874,adaptive_staircase,2024.1.5,None,2024-09-06 11h01.42.317113 +0530
45,0.5,20,1860.782713,1860.768481,1860.782713,1861.281605,1861.281605,1861.281605,1861.583227,1862.797601,left,-20,1,1,-1814.950579,1,1,2024-09-06_11h01.35.874,adaptive_staircase,2024.1.5,None,2024-09-06 11h01.42.317113 +0530
46,0.5,20,1862.81482,1862.797694,1862.81482,1863.297298,1863.297298,1863.314089,1863.596647,1864.768875,right,20,0,0,-1814.986086,1,1,2024-09-06_11h01.35.874,adaptive_staircase,2024.1.5,None,2024-09-06 11h01.42.317113 +0530
47,0.5,20,1864.783144,1864.769091,1864.783144,1865.283566,1865.283566,1865.283566,1865.596564,1865.966921,left,-20,0,0,-1815.776693,1,1,2024-09-06_11h01.35.874,adaptive_staircase,2024.1.5,None,2024-09-06 11h01.42.317113 +0530
48,0.5,20,1865.979663,1865.967111,1865.979663,1866.465299,1866.465299,1866.481727,1866.780409,1869.933986,right,20,1,1,-1812.994167,1,1,2024-09-06_11h01.35.874,adaptive_staircase,2024.1.5,None,2024-09-06 11h01.42.317113 +0530
49,0.5,20,1869.949507,1869.934139,1869.949507,1870.449401,1870.449401,1870.449401,1870.765524,1871.951566,left,-20,1,1,-1814.969014,1,1,2024-09-06_11h01.35.874,adaptive_staircase,2024.1.5,None,2024-09-06 11h01.42.317113 +0530
,,,,,,,,,,,,,,,,,,,,,,
,,,,,,,,,,,,Absolute threshold,19.2,,,,,,,,,
,,,,,,,,,,,,Accuracy,0.2,,,,,,,,,
