stair.thisTrialN,stair.stepSize,stair.intensity,thisRow.t,notes,trial.started,fixation.started,grating.started,key_resp.started,fixation.stopped,grating.stopped,trial.stopped,corrAns,tilt,key_resp.corr,stair.response,key_resp.rt,participant,session,date,expName,psychopyVersion,frameRate,expStart
0,2,10,0.0927918,,0.0610196,0.0927918,0.5243097,0.5243097,0.5954914,0.8311917,1.5551442,right,10,1,1,1.0155548,2,1,2024-09-06_11h39.54.804,adaptive_staircase,2024.1.5,None,2024-09-06 11h39.59.454448 +0530
1,1,8,1.572606,,1.5553235,1.572606,2.0593777,2.0593777,2.0773426,2.3625027,2.7447171,right,8,0,0,0.673425,2,1,2024-09-06_11h39.54.804,adaptive_staircase,2024.1.5,None,2024-09-06 11h39.59.454448 +0530
2,1,9,2.7594336,,2.7448429,2.7594336,3.2475707,3.2475707,3.2634476,3.5690453,3.8017401,right,9,1,1,0.5410077,2,1,2024-09-06_11h39.54.804,adaptive_staircase,2024.1.5,None,2024-09-06 11h39.59.454448 +0530
3,1,9,3.8238088,,3.8018725,3.8238088,4.3117833,4.3117833,4.3283288,4.6115444,4.7298747,left,-9,1,1,0.4077102,2,1,2024-09-06_11h39.54.804,adaptive_staircase,2024.1.5,None,2024-09-06 11h39.59.454448 +0530
4,1,9,4.7445274,,4.7300031,4.7445274,5.2439719,5.2439719,5.2616249,5.545549,5.5794646,right,9,1,1,0.3210425,2,1,2024-09-06_11h39.54.804,adaptive_staircase,2024.1.5,None,2024-09-06 11h39.59.454448 +0530
5,1,8,5.594323,,5.5796543,5.594323,6.0935427,6.0935427,6.0935427,6.3936203,6.4115779,left,-8,1,1,0.3010058,2,1,2024-09-06_11h39.54.804,adaptive_staircase,2024.1.5,None,2024-09-06 11h39.59.454448 +0530
6,1,8,6.4270192,,6.4116881,6.4270192,6.9266818,6.9266818,6.9266818,7.2262797,7.2111445,right,8,1,1,0.2705532,2,1,2024-09-06_11h39.54.804,adaptive_staircase,2024.1.5,None,2024-09-06 11h39.59.454448 +0530
7,0.5,8,7.2262797,,7.2112339,7.2262797,7.7266683,7.7266683,7.7266683,8.0257863,8.0941131,right,8,0,0,0.3533575,2,1,2024-09-06_11h39.54.804,adaptive_staircase,2024.1.5,None,2024-09-06 11h39.59.454448 +0530
8,0.5,8.5,8.1096514,,8.0942328,8.1096514,8.6099051,8.6099051,8.6099051,8.9122165,9.3445106,right,8.5,1,1,0.7208825,2,1,2024-09-06_11h39.54.804,adaptive_staircase,2024.1.5,None,2024-09-06 11h39.59.454448 +0530
9,0.5,8.5,9.3600208,,9.3446072,9.3600208,9.8440636,9.8440636,9.8611189,10.1443897,10.5298503,left,-8.5,1,1,0.673765,2,1,2024-09-06_11h39.54.804,adaptive_staircase,2024.1.5,None,2024-09-06 11h39.59.454448 +0530
10,0.5,8.5,10.5440631,,10.529992,10.5440631,11.0443787,11.0443787,11.0443787,11.3423402,11.4987989,right,8.5,1,1,0.4487716,2,1,2024-09-06_11h39.54.804,adaptive_staircase,2024.1.5,None,2024-09-06 11h39.59.454448 +0530
11,0.5,8,11.5110652,,11.49895,11.5110652,12.0106047,12.0106047,12.0106047,12.310609,12.4296824,left,-8,1,1,0.4075052,2,1,2024-09-06_11h39.54.804,adaptive_staircase,2024.1.5,None,2024-09-06 11h39.59.454448 +0530
12,0.5,8,12.4437489,,12.4298401,12.4437489,12.9459426,12.9459426,12.9459426,13.2451863,13.6478483,right,8,1,1,0.69789,2,1,2024-09-06_11h39.54.804,adaptive_staircase,2024.1.5,None,2024-09-06 11h39.59.454448 +0530
13,0.5,8,13.6600987,,13.6480547,13.6600987,14.1613227,14.1613227,14.1613227,14.4628808,14.5481252,right,8,1,1,0.3826935,2,1,2024-09-06_11h39.54.804,adaptive_staircase,2024.1.5,None,2024-09-06 11h39.59.454448 +0530
14,0.5,7.5,14.5601751,,14.5482921,14.5601751,15.0610761,15.0610761,15.0610761,15.3615424,15.4656338,left,-7.5,0,0,0.4017943,2,1,2024-09-06_11h39.54.804,adaptive_staircase,2024.1.5,None,2024-09-06 11h39.59.454448 +0530
15,0.5,8,15.4885831,,15.4658051,15.4885831,15.9770644,15.9770644,15.9953778,16.2787627,17.0279509,right,8,0,0,1.0376477,2,1,2024-09-06_11h39.54.804,adaptive_staircase,2024.1.5,None,2024-09-06 11h39.59.454448 +0530
16,0.5,8.5,17.0429473,,17.0280771,17.0429473,17.5437484,17.5437484,17.5437484,17.8444478,17.9641984,left,-8.5,1,1,0.4154699,2,1,2024-09-06_11h39.54.804,adaptive_staircase,2024.1.5,None,2024-09-06 11h39.59.454448 +0530
17,0.5,8.5,17.9776638,,17.9643221,17.9776638,18.4771523,18.4771523,18.4771523,18.7770119,18.8127839,left,-8.5,0,0,0.3247972,2,1,2024-09-06_11h39.54.804,adaptive_staircase,2024.1.5,None,2024-09-06 11h39.59.454448 +0530
18,0.5,9,18.8267355,,18.81293,18.8267355,19.326401,19.326401,19.326401,19.626292,19.8135455,left,-9,0,0,0.4830024,2,1,2024-09-06_11h39.54.804,adaptive_staircase,2024.1.5,None,2024-09-06 11h39.59.454448 +0530
19,0.5,9.5,19.8271259,,19.8137176,19.8271259,20.3275342,20.3275342,20.3275342,20.6273419,20.8614376,right,9.5,0,0,0.5180024,2,1,2024-09-06_11h39.54.804,adaptive_staircase,2024.1.5,None,2024-09-06 11h39.59.454448 +0530
20,0.5,10,20.8766757,,20.8615537,20.8766757,21.3604774,21.3604774,21.377521,21.6614973,21.8134788,left,-10,1,1,0.4355606,2,1,2024-09-06_11h39.54.804,adaptive_staircase,2024.1.5,None,2024-09-06 11h39.59.454448 +0530
21,0.5,10,21.8267008,,21.8136078,21.8267008,22.3280593,22.3280593,22.3280593,22.6277713,22.8122557,left,-10,0,0,0.47508,2,1,2024-09-06_11h39.54.804,adaptive_staircase,2024.1.5,None,2024-09-06 11h39.59.454448 +0530
22,0.5,10.5,22.8259993,,22.8123942,22.8259993,23.3094448,23.3094448,23.3251117,23.6109812,23.896827,left,-10.5,0,0,0.5741103,2,1,2024-09-06_11h39.54.804,adaptive_staircase,2024.1.5,None,2024-09-06 11h39.59.454448 +0530
23,0.5,11,23.9104527,,23.8970871,23.9104527,24.408641,24.408641,24.4265861,24.7102617,24.944319,left,-11,0,0,0.5241356,2,1,2024-09-06_11h39.54.804,adaptive_staircase,2024.1.5,None,2024-09-06 11h39.59.454448 +0530
24,0.5,11.5,24.9599486,,24.9444819,24.9599486,25.4663056,25.4663056,25.4753688,25.7775211,26.046632,left,-11.5,1,1,0.5724988,2,1,2024-09-06_11h39.54.804,adaptive_staircase,2024.1.5,None,2024-09-06 11h39.59.454448 +0530
25,0.5,11.5,26.0596615,,26.0467898,26.0596615,26.5609382,26.5609382,26.5609382,26.8605481,27.1134238,right,11.5,0,0,0.5483667,2,1,2024-09-06_11h39.54.804,adaptive_staircase,2024.1.5,None,2024-09-06 11h39.59.454448 +0530
26,0.5,12,27.1264156,,27.1135589,27.1264156,27.6274747,27.6274747,27.6274747,27.9280673,28.1458401,left,-12,0,0,0.5092727,2,1,2024-09-06_11h39.54.804,adaptive_staircase,2024.1.5,None,2024-09-06 11h39.59.454448 +0530
27,0.5,12.5,28.1596343,,28.1459727,28.1596343,28.6595864,28.6595864,28.6770507,28.9605172,29.0957485,right,12.5,1,1,0.4284801,2,1,2024-09-06_11h39.54.804,adaptive_staircase,2024.1.5,None,2024-09-06 11h39.59.454448 +0530
28,0.5,12.5,29.109775,,29.0958668,29.109775,29.6104594,29.6104594,29.6104594,29.9102866,29.9440407,right,12.5,0,0,0.3217903,2,1,2024-09-06_11h39.54.804,adaptive_staircase,2024.1.5,None,2024-09-06 11h39.59.454448 +0530
29,0.5,13,29.9592504,,29.9441775,29.9592504,30.4441235,30.4441235,30.4588838,30.7592724,30.8617613,left,-13,1,1,0.4042456,2,1,2024-09-06_11h39.54.804,adaptive_staircase,2024.1.5,None,2024-09-06 11h39.59.454448 +0530
30,0.5,13,30.8763319,,30.86188,30.8763319,31.377372,31.377372,31.377372,31.677678,31.8626162,right,13,1,1,0.4683463,2,1,2024-09-06_11h39.54.804,adaptive_staircase,2024.1.5,None,2024-09-06 11h39.59.454448 +0530
31,0.5,13,31.8764933,,31.8627564,31.8764933,32.3775259,32.3775259,32.3775259,32.6778973,32.9629376,left,-13,1,1,0.5763728,2,1,2024-09-06_11h39.54.804,adaptive_staircase,2024.1.5,None,2024-09-06 11h39.59.454448 +0530
32,0.5,12.5,32.9760833,,32.9630804,32.9760833,33.4764587,33.4764587,33.4764587,33.7771385,33.8467787,right,12.5,1,1,0.359053,2,1,2024-09-06_11h39.54.804,adaptive_staircase,2024.1.5,None,2024-09-06 11h39.59.454448 +0530
33,0.5,12.5,33.8600157,,33.8469309,33.8600157,34.3606895,34.3606895,34.3606895,34.6607893,34.8615075,left,-12.5,1,1,0.4891939,2,1,2024-09-06_11h39.54.804,adaptive_staircase,2024.1.5,None,2024-09-06 11h39.59.454448 +0530
34,0.5,12.5,34.875826,,34.8616296,34.875826,35.3770456,35.3770456,35.3770456,35.6773239,35.7132536,left,-12.5,0,0,0.3299965,2,1,2024-09-06_11h39.54.804,adaptive_staircase,2024.1.5,None,2024-09-06 11h39.59.454448 +0530
35,0.5,13,35.7259679,,35.7134103,35.7259679,36.2272077,36.2272077,36.2272077,36.5281059,36.7971751,left,-13,1,1,0.5612315,2,1,2024-09-06_11h39.54.804,adaptive_staircase,2024.1.5,None,2024-09-06 11h39.59.454448 +0530
36,0.5,13,36.8089959,,36.7973455,36.8089959,37.3097846,37.3097846,37.3097846,37.6099395,37.9301269,right,13,1,1,0.6126153,2,1,2024-09-06_11h39.54.804,adaptive_staircase,2024.1.5,None,2024-09-06 11h39.59.454448 +0530
37,0.5,13,37.9429738,,37.9302509,37.9429738,38.4435915,38.4435915,38.4435915,38.7607767,39.0795851,left,-13,1,1,0.6275551,2,1,2024-09-06_11h39.54.804,adaptive_staircase,2024.1.5,None,2024-09-06 11h39.59.454448 +0530
38,0.5,12.5,39.092674,,39.0797359,39.092674,39.5945912,39.5945912,39.5945912,39.9103346,40.4628868,right,12.5,1,1,0.8533251,2,1,2024-09-06_11h39.54.804,adaptive_staircase,2024.1.5,None,2024-09-06 11h39.59.454448 +0530
39,0.5,12.5,40.4759538,,40.4630351,40.4759538,40.9776911,40.9776911,40.9776911,41.2775103,42.0298831,left,-12.5,0,0,1.0446617,2,1,2024-09-06_11h39.54.804,adaptive_staircase,2024.1.5,None,2024-09-06 11h39.59.454448 +0530
40,0.5,13,42.0426761,,42.0300458,42.0426761,42.54335,42.54335,42.54335,42.8437277,43.3126096,left,-13,0,0,0.7599202,2,1,2024-09-06_11h39.54.804,adaptive_staircase,2024.1.5,None,2024-09-06 11h39.59.454448 +0530
41,0.5,13.5,43.3260891,,43.3127723,43.3260891,43.826887,43.826887,43.826887,44.1268072,45.4639385,right,13.5,0,0,1.6275067,2,1,2024-09-06_11h39.54.804,adaptive_staircase,2024.1.5,None,2024-09-06 11h39.59.454448 +0530
42,0.5,14,45.4757902,,45.464097,45.4757902,45.9775765,45.9775765,45.9775765,46.2932295,46.8617595,right,14,1,1,0.879267,2,1,2024-09-06_11h39.54.804,adaptive_staircase,2024.1.5,None,2024-09-06 11h39.59.454448 +0530
43,0.5,14,46.8755043,,46.8618795,46.8755043,47.3765586,47.3765586,47.3765586,47.6763968,48.4313317,left,-14,1,1,1.0474397,2,1,2024-09-06_11h39.54.804,adaptive_staircase,2024.1.5,None,2024-09-06 11h39.59.454448 +0530
44,0.5,14,48.4540094,,48.4314915,48.4540094,48.9423547,48.9423547,48.9597594,49.2432454,49.7451094,right,14,0,0,0.7920236,2,1,2024-09-06_11h39.54.804,adaptive_staircase,2024.1.5,None,2024-09-06 11h39.59.454448 +0530
45,0.5,14.5,49.7590596,,49.7452659,49.7590596,50.2599809,50.2599809,50.2599809,50.5761749,51.4784475,left,-14.5,0,0,1.2000982,2,1,2024-09-06_11h39.54.804,adaptive_staircase,2024.1.5,None,2024-09-06 11h39.59.454448 +0530
46,0.5,15,51.4917779,,51.4786414,51.4917779,51.9923541,51.9923541,51.9923541,52.2931884,53.3774685,right,15,0,0,1.3692052,2,1,2024-09-06_11h39.54.804,adaptive_staircase,2024.1.5,None,2024-09-06 11h39.59.454448 +0530
47,0.5,15.5,53.3924158,,53.3776625,53.3924158,53.8924332,53.8924332,53.8924332,54.1931876,55.1431263,right,15.5,1,1,1.2364748,2,1,2024-09-06_11h39.54.804,adaptive_staircase,2024.1.5,None,2024-09-06 11h39.59.454448 +0530
48,0.5,15.5,55.1579176,,55.1432514,55.1579176,55.642224,55.642224,55.6602947,55.9433427,56.5120645,left,-15.5,1,1,0.8603836,2,1,2024-09-06_11h39.54.804,adaptive_staircase,2024.1.5,None,2024-09-06 11h39.59.454448 +0530
49,0.5,15.5,56.5256508,,56.5122003,56.5256508,57.0264606,57.0264606,57.0264606,57.3259198,58.2765704,left,-15.5,0,0,1.246179,2,1,2024-09-06_11h39.54.804,adaptive_staircase,2024.1.5,None,2024-09-06 11h39.59.454448 +0530
,,,,,,,,,,,,,,,,,,,,,,,
,,,,,,,,,,,,,Absolute threshold,13.6,,,,,,,,,
